date	time	subject	blockcode	blocknum	trialcode	trialnum	latency	correct	pretrialpause	posttrialpause	response	stimulus1	stimulus2	stimulus3	stimulus4	stimulus5	stimulus6	stimulus7	stimulus8	stimulus9	stimulus10	stimulus11	stimulus12	stimulus13	stimulus14	stimulus15	stimulus16
052819	11:25:52	11	Intersecting_Regularities_Training_block1_LR_E	1	Intersecting_Regularities_Training_Trial_1_left	1	1500	0	750	750	0	Stimulus_1.jpg	0	0	0	0	0	0	0	0	0	0	0	0	0	0	0
052819	11:25:52	11	Intersecting_Regularities_Training_block1_LR_E	1	Intersecting_Regularities_Training_Trial_2_left	2	1500	0	750	750	0	Stimulus_2.jpg	0	0	0	0	0	0	0	0	0	0	0	0	0	0	0
052819	11:25:52	11	Intersecting_Regularities_Training_block1_LR_E	1	Intersecting_Regularities_Training_Trial_4_right	3	1500	0	750	750	0	Stimulus_4.jpg	0	0	0	0	0	0	0	0	0	0	0	0	0	0	0
052819	11:25:52	11	Intersecting_Regularities_Training_block1_LR_E	1	Intersecting_Regularities_Training_Trial_3_right	4	1500	0	750	750	0	Stimulus_3.jpg	0	0	0	0	0	0	0	0	0	0	0	0	0	0	0
052819	11:25:52	11	Intersecting_Regularities_Training_block1_LR_E	1	Intersecting_Regularities_Training_Trial_2_left	5	1500	0	750	750	0	Stimulus_2.jpg	0	0	0	0	0	0	0	0	0	0	0	0	0	0	0
052819	11:25:52	11	Intersecting_Regularities_Training_block1_LR_E	1	Intersecting_Regularities_Training_Trial_3_right	6	1500	0	750	750	0	Stimulus_3.jpg	0	0	0	0	0	0	0	0	0	0	0	0	0	0	0
052819	11:25:52	11	Intersecting_Regularities_Training_block1_LR_E	1	Intersecting_Regularities_Training_Trial_4_right	7	1500	0	750	750	0	Stimulus_4.jpg	0	0	0	0	0	0	0	0	0	0	0	0	0	0	0
052819	11:25:52	11	Intersecting_Regularities_Training_block1_LR_E	1	Intersecting_Regularities_Training_Trial_1_left	8	1500	0	750	750	0	Stimulus_1.jpg	0	0	0	0	0	0	0	0	0	0	0	0	0	0	0
052819	11:25:52	11	Intersecting_Regularities_Training_block1_LR_E	1	Intersecting_Regularities_Training_Trial_2_left	9	1500	0	750	750	0	Stimulus_2.jpg	0	0	0	0	0	0	0	0	0	0	0	0	0	0	0
052819	11:25:52	11	Intersecting_Regularities_Training_block1_LR_E	1	Intersecting_Regularities_Training_Trial_4_right	10	1500	0	750	750	0	Stimulus_4.jpg	0	0	0	0	0	0	0	0	0	0	0	0	0	0	0
052819	11:25:52	11	Intersecting_Regularities_Training_block1_LR_E	1	Intersecting_Regularities_Training_Trial_1_left	11	1500	0	750	750	0	Stimulus_1.jpg	0	0	0	0	0	0	0	0	0	0	0	0	0	0	0
052819	11:25:52	11	Intersecting_Regularities_Training_block1_LR_E	1	Intersecting_Regularities_Training_Trial_3_right	12	1500	0	750	750	0	Stimulus_3.jpg	0	0	0	0	0	0	0	0	0	0	0	0	0	0	0
052819	11:25:52	11	Intersecting_Regularities_Training_block1_LR_E	1	Intersecting_Regularities_Training_Trial_2_left	13	1500	0	750	750	0	Stimulus_2.jpg	0	0	0	0	0	0	0	0	0	0	0	0	0	0	0
052819	11:25:52	11	Intersecting_Regularities_Training_block1_LR_E	1	Intersecting_Regularities_Training_Trial_1_left	14	1500	0	750	750	0	Stimulus_1.jpg	0	0	0	0	0	0	0	0	0	0	0	0	0	0	0
052819	11:25:52	11	Intersecting_Regularities_Training_block1_LR_E	1	Intersecting_Regularities_Training_Trial_3_right	15	1500	0	750	750	0	Stimulus_3.jpg	0	0	0	0	0	0	0	0	0	0	0	0	0	0	0
052819	11:25:52	11	Intersecting_Regularities_Training_block1_LR_E	1	Intersecting_Regularities_Training_Trial_4_right	16	1500	0	750	750	0	Stimulus_4.jpg	0	0	0	0	0	0	0	0	0	0	0	0	0	0	0
052819	11:25:52	11	Intersecting_Regularities_Training_block1_LR_E	1	Intersecting_Regularities_Training_Trial_2_left	17	1500	0	750	750	0	Stimulus_2.jpg	0	0	0	0	0	0	0	0	0	0	0	0	0	0	0
052819	11:25:52	11	Intersecting_Regularities_Training_block1_LR_E	1	Intersecting_Regularities_Training_Trial_3_right	18	1500	0	750	750	0	Stimulus_3.jpg	0	0	0	0	0	0	0	0	0	0	0	0	0	0	0
052819	11:25:52	11	Intersecting_Regularities_Training_block1_LR_E	1	Intersecting_Regularities_Training_Trial_4_right	19	1500	0	750	750	0	Stimulus_4.jpg	0	0	0	0	0	0	0	0	0	0	0	0	0	0	0
